study_word,thisN,thisTrialN,thisRepN,slider.response,slider.rt,t_word,reference,old_new,textbox.text,mouse.x,mouse.y,mouse.leftButton,mouse.midButton,mouse.rightButton,mouse.time,mouse.clicked_name,loop.thisRepN,loop.thisTrialN,loop.thisN,loop.thisIndex,trials.thisRepN,trials.thisTrialN,trials.thisN,trials.thisIndex,thisRow.t,notes,trial.started,text.started,slider.started,trial.stopped,loop.slider.response,loop.slider.rt,test.started,text_2.started,textbox.started,text_3.started,mouse.started,test.stopped,trials.textbox.text,trials.mouse.x,trials.mouse.y,trials.mouse.leftButton,trials.mouse.midButton,trials.mouse.rightButton,trials.mouse.time,trials.mouse.clicked_name,text_2.stopped,textbox.stopped,text_3.stopped,mouse.stopped,participant,session,date,expName,psychopyVersion,frameRate,expStart,
police,0,0,0,1,1.9398783999495208,,,,,,,,,,,,0,0,0,12,,,,,0.04250389989465475,,0.023218199610710144,0.04250389989465475,0.04250389989465475,1.9793642000295222,1,1.9398783999495208,,,,,,,,,,,,,,,,,,,04,001,2024-11-06_21h35.28.390,Word Priming Task,2024.2.1post4,60.077018680970205,2024-11-06 21h35.39.927558 +0530,
mouse,1,1,0,1.0066666666666666,0.9649877999909222,,,,,,,,,,,,0,1,1,8,,,,,1.993503199890256,,1.9816870000213385,1.993503199890256,1.993503199890256,2.962572299875319,1.0066666666666666,0.9649877999909222,,,,,,,,,,,,,,,,,,,04,001,2024-11-06_21h35.28.390,Word Priming Task,2024.2.1post4,60.077018680970205,2024-11-06 21h35.39.927558 +0530,
t-shirt,2,2,0,1.0066666666666666,0.9639026001095772,,,,,,,,,,,,0,2,2,7,,,,,2.975891999900341,,2.9665377996861935,2.975891999900341,2.975891999900341,3.946207699831575,1.0066666666666666,0.9639026001095772,,,,,,,,,,,,,,,,,,,04,001,2024-11-06_21h35.28.390,Word Priming Task,2024.2.1post4,60.077018680970205,2024-11-06 21h35.39.927558 +0530,
keys,3,3,0,1.0066666666666666,1.0803757002577186,,,,,,,,,,,,0,3,3,13,,,,,3.9599343999288976,,3.9493729998357594,3.9599343999288976,3.9599343999288976,5.045951099600643,1.0066666666666666,1.0803757002577186,,,,,,,,,,,,,,,,,,,04,001,2024-11-06_21h35.28.390,Word Priming Task,2024.2.1post4,60.077018680970205,2024-11-06 21h35.39.927558 +0530,
marble,4,4,0,1.0066666666666666,0.9639608999714255,,,,,,,,,,,,0,4,4,3,,,,,5.060133900027722,,5.049117499962449,5.060133900027722,5.060133900027722,6.028890499845147,1.0066666666666666,0.9639608999714255,,,,,,,,,,,,,,,,,,,04,001,2024-11-06_21h35.28.390,Word Priming Task,2024.2.1post4,60.077018680970205,2024-11-06 21h35.39.927558 +0530,
board,5,5,0,1.0066666666666666,0.9972942001186311,,,,,,,,,,,,0,5,5,4,,,,,6.043123199604452,,6.032140299677849,6.043123199604452,6.043123199604452,7.0463593997992575,1.0066666666666666,0.9972942001186311,,,,,,,,,,,,,,,,,,,04,001,2024-11-06_21h35.28.390,Word Priming Task,2024.2.1post4,60.077018680970205,2024-11-06 21h35.39.927558 +0530,
chart,6,6,0,1.0066666666666666,0.897649799939245,,,,,,,,,,,,0,6,6,6,,,,,7.059640999883413,,7.0485032997094095,7.059640999883413,7.059640999883413,7.962181999813765,1.0066666666666666,0.897649799939245,,,,,,,,,,,,,,,,,,,04,001,2024-11-06_21h35.28.390,Word Priming Task,2024.2.1post4,60.077018680970205,2024-11-06 21h35.39.927558 +0530,
cushion,7,7,0,1.0066666666666666,0.8648577001877129,,,,,,,,,,,,0,7,7,1,,,,,7.9765074998140335,,7.965470099821687,7.9765074998140335,7.9765074998140335,8.84625509986654,1.0066666666666666,0.8648577001877129,,,,,,,,,,,,,,,,,,,04,001,2024-11-06_21h35.28.390,Word Priming Task,2024.2.1post4,60.077018680970205,2024-11-06 21h35.39.927558 +0530,
pastry,8,8,0,1.0066666666666666,0.7646158998832107,,,,,,,,,,,,0,8,8,9,,,,,8.859899600036442,,8.848444699775428,8.859899600036442,8.859899600036442,9.628950399812311,1.0066666666666666,0.7646158998832107,,,,,,,,,,,,,,,,,,,04,001,2024-11-06_21h35.28.390,Word Priming Task,2024.2.1post4,60.077018680970205,2024-11-06 21h35.39.927558 +0530,
phone,9,9,0,1.0066666666666666,0.7988683003932238,,,,,,,,,,,,0,9,9,2,,,,,9.643352899700403,,9.631130199879408,9.643352899700403,9.643352899700403,10.4460138999857,1.0066666666666666,0.7988683003932238,,,,,,,,,,,,,,,,,,,04,001,2024-11-06_21h35.28.390,Word Priming Task,2024.2.1post4,60.077018680970205,2024-11-06 21h35.39.927558 +0530,
case,10,10,0,1.0066666666666666,0.9316203002817929,,,,,,,,,,,,0,10,10,10,,,,,10.459888199809939,,10.448157999664545,10.459888199809939,10.459888199809939,11.395875199697912,1.0066666666666666,0.9316203002817929,,,,,,,,,,,,,,,,,,,04,001,2024-11-06_21h35.28.390,Word Priming Task,2024.2.1post4,60.077018680970205,2024-11-06 21h35.39.927558 +0530,
laptop,11,11,0,1.0066666666666666,0.9652530997991562,,,,,,,,,,,,0,11,11,5,,,,,11.409826299641281,,11.398133999668062,11.409826299641281,11.409826299641281,12.379562799818814,1.0066666666666666,0.9652530997991562,,,,,,,,,,,,,,,,,,,04,001,2024-11-06_21h35.28.390,Word Priming Task,2024.2.1post4,60.077018680970205,2024-11-06 21h35.39.927558 +0530,
poster,12,12,0,1.0066666666666666,0.7810864001512527,,,,,,,,,,,,0,12,12,14,,,,,12.393018699716777,,12.3816848997958,12.393018699716777,12.393018699716777,13.178954300004989,1.0066666666666666,0.7810864001512527,,,,,,,,,,,,,,,,,,,04,001,2024-11-06_21h35.28.390,Word Priming Task,2024.2.1post4,60.077018680970205,2024-11-06 21h35.39.927558 +0530,
book,13,13,0,1.0066666666666666,0.8829293996095657,,,,,,,,,,,,0,13,13,0,,,,,13.1931631998159,,13.180931400042027,13.1931631998159,13.1931631998159,14.07943859975785,1.0066666666666666,0.8829293996095657,,,,,,,,,,,,,,,,,,,04,001,2024-11-06_21h35.28.390,Word Priming Task,2024.2.1post4,60.077018680970205,2024-11-06 21h35.39.927558 +0530,
cruise,14,14,0,1.0066666666666666,0.6986404000781476,,,,,,,,,,,,0,14,14,11,,,,,14.09333709999919,,14.081764000002295,14.09333709999919,14.09333709999919,14.796093099750578,1.0066666666666666,0.6986404000781476,,,,,,,,,,,,,,,,,,,04,001,2024-11-06_21h35.28.390,Word Priming Task,2024.2.1post4,60.077018680970205,2024-11-06 21h35.39.927558 +0530,
,0,0,0,,,c_s_,case,old,case,[-0.39666666666666667],[-0.11333333333333333],[1],[0],[0],[3.9076861003413796],[None],,,,,0,0,0,5,14.825737999752164,,,,,,,,14.805246299598366,14.825737999752164,14.825737999752164,14.825737999752164,0.00914960028603673,18.71348959999159,case,[-0.39666666666666667],[-0.11333333333333333],[1],[0],[0],[3.9076861003413796],[None],,,,,04,001,2024-11-06_21h35.28.390,Word Priming Task,2024.2.1post4,60.077018680970205,2024-11-06 21h35.39.927558 +0530,
,1,1,0,,,_ru__e,cruise,old,cruise,[-0.365],[-0.015],[1],[0],[0],[3.8636234998703003],[None],,,,,0,1,1,6,18.726274699904025,,,,,,,,18.71533069992438,18.726274699904025,18.726274699904025,18.726274699904025,0.0017454000189900398,22.57958409981802,cruise,[-0.365],[-0.015],[1],[0],[0],[3.8636234998703003],[None],,,,,04,001,2024-11-06_21h35.28.390,Word Priming Task,2024.2.1post4,60.077018680970205,2024-11-06 21h35.39.927558 +0530,
,2,2,0,,,l_pt_p,laptop,old,laptop,[-0.365],[0.006666666666666667],[1],[0],[0],[3.71500839991495],[None],,,,,0,2,2,0,22.593335999641567,,,,,,,,22.58139259973541,22.593335999641567,22.593335999641567,22.593335999641567,0.0017233001999557018,26.29689639993012,laptop,[-0.365],[0.006666666666666667],[1],[0],[0],[3.71500839991495],[None],,,,,04,001,2024-11-06_21h35.28.390,Word Priming Task,2024.2.1post4,60.077018680970205,2024-11-06 21h35.39.927558 +0530,
,3,3,0,,,p_st_r,poster,old,poster,[-0.365],[0.006666666666666667],[1],[0],[0],[4.012689500115812],[None],,,,,0,3,3,9,26.30960869975388,,,,,,,,26.29872679989785,26.30960869975388,26.30960869975388,26.30960869975388,0.0017280001193284988,30.312043000012636,poster,[-0.365],[0.006666666666666667],[1],[0],[0],[4.012689500115812],[None],,,,,04,001,2024-11-06_21h35.28.390,Word Priming Task,2024.2.1post4,60.077018680970205,2024-11-06 21h35.39.927558 +0530,
,4,4,0,,,k_y_,keys,old,keys,[-0.365],[0.006666666666666667],[1],[0],[0],[2.3482737001031637],[None],,,,,0,4,4,8,30.32649809960276,,,,,,,,30.313909499906003,30.32649809960276,30.32649809960276,30.32649809960276,0.0017638001590967178,32.66269009979442,keys,[-0.365],[0.006666666666666667],[1],[0],[0],[2.3482737001031637],[None],,,,,04,001,2024-11-06_21h35.28.390,Word Priming Task,2024.2.1post4,60.077018680970205,2024-11-06 21h35.39.927558 +0530,
,5,5,0,,,p_li_e,police,old,police,[-0.365],[0.006666666666666667],[1],[0],[0],[2.814390500076115],[None],,,,,0,5,5,7,32.6758261998184,,,,,,,,32.66478359978646,32.6758261998184,32.6758261998184,32.6758261998184,0.002009199932217598,35.4797514998354,police,[-0.365],[0.006666666666666667],[1],[0],[0],[2.814390500076115],[None],,,,,04,001,2024-11-06_21h35.28.390,Word Priming Task,2024.2.1post4,60.077018680970205,2024-11-06 21h35.39.927558 +0530,
,6,6,0,,,v_s_,vase,new,vase,[-0.365],[0.006666666666666667],[1],[0],[0],[2.979125800076872],[None],,,,,0,6,6,17,35.492912099696696,,,,,,,,35.48284159973264,35.492912099696696,35.492912099696696,35.492912099696696,0.002951599657535553,38.462493899744004,vase,[-0.365],[0.006666666666666667],[1],[0],[0],[2.979125800076872],[None],,,,,04,001,2024-11-06_21h35.28.390,Word Priming Task,2024.2.1post4,60.077018680970205,2024-11-06 21h35.39.927558 +0530,
,7,7,0,,,p_nc_l,pencil,new,pencil,[-0.365],[0.006666666666666667],[1],[0],[0],[3.0474681998603046],[None],,,,,0,7,7,16,38.47633079998195,,,,,,,,38.46430590003729,38.47633079998195,38.47633079998195,38.47633079998195,0.001726000104099512,41.51227229973301,pencil,[-0.365],[0.006666666666666667],[1],[0],[0],[3.0474681998603046],[None],,,,,04,001,2024-11-06_21h35.28.390,Word Priming Task,2024.2.1post4,60.077018680970205,2024-11-06 21h35.39.927558 +0530,
,8,8,0,,,_ho_e,phone,old,phone,[-0.365],[0.006666666666666667],[1],[0],[0],[5.083024200052023],[None],,,,,0,8,8,12,41.52583749964833,,,,,,,,41.51409459998831,41.52583749964833,41.52583749964833,41.52583749964833,0.0017377999611198902,46.5976967997849,phone,[-0.365],[0.006666666666666667],[1],[0],[0],[5.083024200052023],[None],,,,,04,001,2024-11-06_21h35.28.390,Word Priming Task,2024.2.1post4,60.077018680970205,2024-11-06 21h35.39.927558 +0530,
,9,9,0,,,_a_bl_e,marble,old,marble,[-0.365],[0.006666666666666667],[1],[0],[0],[3.32996439980343],[None],,,,,0,9,9,11,46.625749699771404,,,,,,,,46.60048189992085,46.625749699771404,46.625749699771404,46.625749699771404,0.0026793000288307667,49.931232899893075,marble,[-0.365],[0.006666666666666667],[1],[0],[0],[3.32996439980343],[None],,,,,04,001,2024-11-06_21h35.28.390,Word Priming Task,2024.2.1post4,60.077018680970205,2024-11-06 21h35.39.927558 +0530,
,10,10,0,,,t_sh_t,tshirt,old,tshirt,[-0.365],[0.006666666666666667],[1],[0],[0],[3.162012299988419],[None],,,,,0,10,10,2,49.95860080001876,,,,,,,,49.93455330003053,49.95860080001876,49.95860080001876,49.95860080001876,0.0032278997823596,53.09737670002505,tshirt,[-0.365],[0.006666666666666667],[1],[0],[0],[3.162012299988419],[None],,,,,04,001,2024-11-06_21h35.28.390,Word Priming Task,2024.2.1post4,60.077018680970205,2024-11-06 21h35.39.927558 +0530,
,11,11,0,,,c_m_ra,camera,new,c,[],[],[],[],[],[],[],,,,,0,11,11,19,53.12534249993041,,,,,,,,53.09997049998492,53.12534249993041,53.12534249993041,53.12534249993041,0.0024443999864161015,63.1125476998277,c,[],[],[],[],[],[],[],,,,,04,001,2024-11-06_21h35.28.390,Word Priming Task,2024.2.1post4,60.077018680970205,2024-11-06 21h35.39.927558 +0530,
,12,12,0,,,c_s_io_,cushion,old,cushion,[-0.365],[0.006666666666666667],[1],[0],[0],[3.49871230032295],[None],,,,,0,12,12,14,63.12592959962785,,,,,,,,63.114881000015885,63.12592959962785,63.12592959962785,63.12592959962785,0.017355100251734257,66.61422269977629,cushion,[-0.365],[0.006666666666666667],[1],[0],[0],[3.49871230032295],[None],,,,,04,001,2024-11-06_21h35.28.390,Word Priming Task,2024.2.1post4,60.077018680970205,2024-11-06 21h35.39.927558 +0530,
,13,13,0,,,ta_l_e,table,new,table,[],[],[],[],[],[],[],,,,,0,13,13,15,66.62587039964274,,,,,,,,66.61672509973869,66.62587039964274,66.62587039964274,66.62587039964274,0.0023680999875068665,76.61283440003172,table,[],[],[],[],[],[],[],76.62572319991887,76.62572319991887,76.62572319991887,9.997809699736536,04,001,2024-11-06_21h35.28.390,Word Priming Task,2024.2.1post4,60.077018680970205,2024-11-06 21h35.39.927558 +0530,
,14,14,0,,,_o_se,mouse,old,cr,[],[],[],[],[],[],[],,,,,0,14,14,3,76.62572319991887,,,,,,,,76.61543679982424,76.62572319991887,76.62572319991887,76.62572319991887,0.001082099974155426,86.61253639962524,cr,[],[],[],[],[],[],[],86.62569089978933,86.62569089978933,86.62569089978933,9.997552199754864,04,001,2024-11-06_21h35.28.390,Word Priming Task,2024.2.1post4,60.077018680970205,2024-11-06 21h35.39.927558 +0530,
,15,15,0,,,_o_rd,board,old,board,[-0.33],[0.006666666666666667],[1],[0],[0],[3.0979979000985622],[None],,,,,0,15,15,10,86.62569089978933,,,,,,,,86.61488799983636,86.62569089978933,86.62569089978933,86.62569089978933,0.0005310997366905212,89.71363939996809,board,[-0.33],[0.006666666666666667],[1],[0],[0],[3.0979979000985622],[None],,,,,04,001,2024-11-06_21h35.28.390,Word Priming Task,2024.2.1post4,60.077018680970205,2024-11-06 21h35.39.927558 +0530,
,16,16,0,,,_ha_t,chart,old,chart,[-0.33],[0.006666666666666667],[1],[0],[0],[3.380824699997902],[None],,,,,0,16,16,1,89.72565439995378,,,,,,,,89.71600569970906,89.72565439995378,89.72565439995378,89.72565439995378,0.002218599896878004,93.09761169971898,chart,[-0.33],[0.006666666666666667],[1],[0],[0],[3.380824699997902],[None],,,,,04,001,2024-11-06_21h35.28.390,Word Priming Task,2024.2.1post4,60.077018680970205,2024-11-06 21h35.39.927558 +0530,
,17,17,0,,,_oo_,book,old,book,[-0.33],[0.006666666666666667],[1],[0],[0],[2.712044999934733],[None],,,,,0,17,17,13,93.12511279992759,,,,,,,,93.0997846997343,93.12511279992759,93.12511279992759,93.12511279992759,0.002063699997961521,95.81248509977013,book,[-0.33],[0.006666666666666667],[1],[0],[0],[2.712044999934733],[None],,,,,04,001,2024-11-06_21h35.28.390,Word Priming Task,2024.2.1post4,60.077018680970205,2024-11-06 21h35.39.927558 +0530,
,18,18,0,,,p_s_tr_,pastry,old,pastry,[-0.33],[0.006666666666666667],[1],[0],[0],[4.380860900040716],[None],,,,,0,18,18,4,95.82582579972222,,,,,,,,95.81494319997728,95.82582579972222,95.82582579972222,95.82582579972222,0.0023532998748123646,100.19647169997916,pastry,[-0.33],[0.006666666666666667],[1],[0],[0],[4.380860900040716],[None],,,,,04,001,2024-11-06_21h35.28.390,Word Priming Task,2024.2.1post4,60.077018680970205,2024-11-06 21h35.39.927558 +0530,
,19,19,0,,,bo_t_e,bottle,new,bottle,[-0.33],[0.006666666666666667],[1],[0],[0],[3.746777600143105],[None],,,,,0,19,19,18,100.20905169984326,,,,,,,,100.19893589988351,100.20905169984326,100.20905169984326,100.20905169984326,0.00235519977286458,103.94646279979497,bottle,[-0.33],[0.006666666666666667],[1],[0],[0],[3.746777600143105],[None],,,,,04,001,2024-11-06_21h35.28.390,Word Priming Task,2024.2.1post4,60.077018680970205,2024-11-06 21h35.39.927558 +0530,
